Wavelength (nm)	Tan(Psi)	Cos(Del)
250.0	0.6634	0.4062
251.2	0.6612	0.4049
252.3	0.6604	0.4007
253.5	0.6603	0.3991
254.7	0.6615	0.3961
255.9	0.6631	0.3909
257.0	0.6636	0.3881
258.2	0.6626	0.3854
259.4	0.6627	0.3788
260.6	0.6602	0.3743
261.7	0.6616	0.3687
262.9	0.6636	0.3634
264.1	0.6663	0.3605
265.3	0.6657	0.3592
266.4	0.6656	0.3540
267.6	0.6639	0.3523
268.8	0.6622	0.3487
270.0	0.6632	0.3459
271.1	0.6630	0.3421
272.3	0.6630	0.3358
273.5	0.6627	0.3330
274.7	0.6628	0.3288
275.8	0.6635	0.3261
277.0	0.6639	0.3233
278.2	0.6643	0.3177
279.4	0.6657	0.3136
280.5	0.6656	0.3066
281.7	0.6661	0.3024
282.9	0.6658	0.2974
284.1	0.6638	0.2916
285.2	0.6644	0.2883
286.4	0.6648	0.2836
287.6	0.6657	0.2807
288.7	0.6661	0.2777
289.9	0.6666	0.2738
291.1	0.6666	0.2681
292.3	0.6670	0.2616
293.4	0.6673	0.2573
294.6	0.6659	0.2552
295.8	0.6656	0.2537
297.0	0.6641	0.2507
298.1	0.6633	0.2473
299.3	0.6634	0.2433
300.5	0.6626	0.2393
301.7	0.6628	0.2365
302.8	0.6629	0.2321
304.0	0.6641	0.2279
305.2	0.6643	0.2240
306.4	0.6649	0.2191
307.5	0.6654	0.2149
308.7	0.6660	0.2126
309.9	0.6649	0.2096
311.1	0.6644	0.2059
312.2	0.6639	0.2002
313.4	0.6646	0.1966
314.6	0.6645	0.1942
315.8	0.6642	0.1916
316.9	0.6641	0.1885
318.1	0.6644	0.1841
319.3	0.6635	0.1796
320.5	0.6624	0.1763
321.6	0.6618	0.1743
322.8	0.6626	0.1710
324.0	0.6646	0.1682
325.1	0.6648	0.1660
326.3	0.6637	0.1621
327.5	0.6632	0.1588
328.7	0.6612	0.1537
329.8	0.6595	0.1493
331.0	0.6575	0.1452
332.2	0.6576	0.1422
333.4	0.6570	0.1408
334.5	0.6592	0.1396
335.7	0.6609	0.1365
336.9	0.6618	0.1322
338.1	0.6617	0.1287
339.2	0.6618	0.1251
340.4	0.6617	0.1227
341.6	0.6618	0.1207
342.8	0.6633	0.1161
343.9	0.6639	0.1125
345.1	0.6635	0.1098
346.3	0.6625	0.1068
347.5	0.6609	0.1042
348.6	0.6602	0.1006
349.8	0.6592	0.0975
351.0	0.6592	0.0949
352.2	0.6604	0.0925
353.3	0.6618	0.0893
354.5	0.6629	0.0873
355.7	0.6632	0.0847
356.8	0.6629	0.0819
358.0	0.6609	0.0798
359.2	0.6606	0.0772
360.4	0.6615	0.0756
361.5	0.6632	0.0722
362.7	0.6640	0.0693
363.9	0.6636	0.0665
365.1	0.6635	0.0649
366.2	0.6642	0.0637
367.4	0.6645	0.0601
368.6	0.6627	0.0551
369.8	0.6613	0.0500
370.9	0.6597	0.0463
372.1	0.6608	0.0427
373.3	0.6605	0.0413
374.5	0.6597	0.0400
375.6	0.6606	0.0372
376.8	0.6596	0.0358
378.0	0.6605	0.0328
379.2	0.6605	0.0311
380.3	0.6607	0.0305
381.5	0.6622	0.0273
382.7	0.6612	0.0250
383.9	0.6626	0.0208
385.0	0.6638	0.0153
386.2	0.6638	0.0106
387.4	0.6630	0.0058
388.6	0.6633	0.0004
389.7	0.6648	-0.0036
390.9	0.6643	-0.0091
392.1	0.6649	-0.0121
393.2	0.6654	-0.0141
394.4	0.6657	-0.0145
395.6	0.6647	-0.0131
396.8	0.6645	-0.0135
397.9	0.6644	-0.0144
399.1	0.6641	-0.0170
400.3	0.6640	-0.0197
401.5	0.6642	-0.0220
402.6	0.6641	-0.0248
403.8	0.6645	-0.0269
405.0	0.6639	-0.0304
406.2	0.6642	-0.0336
407.3	0.6639	-0.0365
408.5	0.6645	-0.0388
409.7	0.6643	-0.0414
410.9	0.6632	-0.0441
412.0	0.6632	-0.0462
413.2	0.6630	-0.0469
414.4	0.6632	-0.0494
415.6	0.6633	-0.0509
416.7	0.6635	-0.0535
417.9	0.6638	-0.0561
419.1	0.6640	-0.0589
420.3	0.6650	-0.0620
421.4	0.6644	-0.0639
422.6	0.6654	-0.0654
423.8	0.6657	-0.0679
425.0	0.6668	-0.0702
426.1	0.6677	-0.0727
427.3	0.6680	-0.0735
428.5	0.6683	-0.0756
429.6	0.6683	-0.0778
430.8	0.6684	-0.0806
432.0	0.6688	-0.0831
433.2	0.6689	-0.0852
434.3	0.6695	-0.0876
435.5	0.6694	-0.0903
436.7	0.6697	-0.0927
437.9	0.6694	-0.0952
439.0	0.6697	-0.0976
440.2	0.6697	-0.0999
441.4	0.6694	-0.1020
442.6	0.6692	-0.1043
443.7	0.6692	-0.1067
444.9	0.6698	-0.1085
446.1	0.6701	-0.1111
447.3	0.6700	-0.1128
448.4	0.6693	-0.1154
449.6	0.6692	-0.1181
450.8	0.6681	-0.1204
452.0	0.6675	-0.1232
453.1	0.6676	-0.1258
454.3	0.6676	-0.1282
455.5	0.6679	-0.1306
456.7	0.6672	-0.1327
457.8	0.6664	-0.1344
459.0	0.6657	-0.1371
460.2	0.6651	-0.1391
461.4	0.6650	-0.1414
462.5	0.6642	-0.1439
463.7	0.6640	-0.1451
464.9	0.6637	-0.1470
466.0	0.6636	-0.1487
467.2	0.6637	-0.1510
468.4	0.6640	-0.1531
469.6	0.6642	-0.1557
470.7	0.6645	-0.1575
471.9	0.6648	-0.1593
473.1	0.6645	-0.1612
474.3	0.6648	-0.1636
475.4	0.6645	-0.1659
476.6	0.6648	-0.1687
477.8	0.6650	-0.1708
479.0	0.6654	-0.1730
480.1	0.6661	-0.1746
481.3	0.6664	-0.1771
482.5	0.6668	-0.1795
483.7	0.6675	-0.1819
484.8	0.6684	-0.1838
486.0	0.6690	-0.1852
487.2	0.6693	-0.1867
488.4	0.6693	-0.1883
489.5	0.6698	-0.1906
490.7	0.6709	-0.1925
491.9	0.6720	-0.1946
493.1	0.6729	-0.1967
494.2	0.6734	-0.1990
495.4	0.6738	-0.2011
496.6	0.6741	-0.2028
497.7	0.6748	-0.2045
498.9	0.6757	-0.2065
500.1	0.6766	-0.2084
501.3	0.6776	-0.2106
502.4	0.6786	-0.2130
503.6	0.6794	-0.2150
504.8	0.6800	-0.2169
506.0	0.6802	-0.2181
507.1	0.6803	-0.2203
508.3	0.6809	-0.2227
509.5	0.6809	-0.2254
510.7	0.6811	-0.2276
511.8	0.6810	-0.2289
513.0	0.6810	-0.2303
514.2	0.6809	-0.2317
515.4	0.6813	-0.2333
516.5	0.6816	-0.2356
517.7	0.6822	-0.2376
518.9	0.6825	-0.2397
520.1	0.6830	-0.2416
521.2	0.6835	-0.2437
522.4	0.6833	-0.2453
523.6	0.6835	-0.2471
524.8	0.6835	-0.2493
525.9	0.6837	-0.2507
527.1	0.6835	-0.2530
528.3	0.6831	-0.2549
529.5	0.6832	-0.2563
530.6	0.6836	-0.2581
531.8	0.6841	-0.2595
533.0	0.6841	-0.2615
534.1	0.6837	-0.2633
535.3	0.6828	-0.2654
536.5	0.6830	-0.2674
537.7	0.6828	-0.2689
538.8	0.6828	-0.2708
540.0	0.6822	-0.2728
541.2	0.6823	-0.2750
542.4	0.6826	-0.2766
543.5	0.6830	-0.2781
544.7	0.6830	-0.2796
545.9	0.6828	-0.2811
547.1	0.6824	-0.2831
548.2	0.6822	-0.2856
549.4	0.6817	-0.2877
550.6	0.6811	-0.2896
551.8	0.6806	-0.2910
552.9	0.6803	-0.2925
554.1	0.6797	-0.2943
555.3	0.6796	-0.2962
556.5	0.6788	-0.2983
557.6	0.6787	-0.3001
558.8	0.6789	-0.3018
560.0	0.6789	-0.3032
561.2	0.6785	-0.3047
562.3	0.6776	-0.3062
563.5	0.6773	-0.3085
564.7	0.6770	-0.3101
565.9	0.6773	-0.3118
567.0	0.6772	-0.3135
568.2	0.6773	-0.3153
569.4	0.6775	-0.3167
570.5	0.6774	-0.3183
571.7	0.6777	-0.3198
572.9	0.6781	-0.3213
574.1	0.6783	-0.3227
575.2	0.6786	-0.3241
576.4	0.6790	-0.3261
577.6	0.6790	-0.3275
578.8	0.6790	-0.3294
579.9	0.6786	-0.3309
581.1	0.6785	-0.3328
582.3	0.6784	-0.3342
583.5	0.6782	-0.3358
584.6	0.6784	-0.3380
585.8	0.6792	-0.3394
587.0	0.6798	-0.3412
588.2	0.6802	-0.3427
589.3	0.6804	-0.3449
590.5	0.6810	-0.3462
591.7	0.6818	-0.3480
592.9	0.6822	-0.3496
594.0	0.6818	-0.3514
595.2	0.6818	-0.3535
596.4	0.6822	-0.3548
597.6	0.6826	-0.3567
598.7	0.6825	-0.3583
599.9	0.6826	-0.3596
601.1	0.6832	-0.3617
602.3	0.6832	-0.3629
603.4	0.6837	-0.3643
604.6	0.6838	-0.3661
605.8	0.6844	-0.3672
606.9	0.6849	-0.3685
608.1	0.6853	-0.3705
609.3	0.6856	-0.3725
610.5	0.6865	-0.3739
611.6	0.6877	-0.3755
612.8	0.6887	-0.3769
614.0	0.6893	-0.3786
615.2	0.6896	-0.3802
616.3	0.6897	-0.3813
617.5	0.6899	-0.3828
618.7	0.6899	-0.3841
619.9	0.6897	-0.3858
621.0	0.6897	-0.3874
622.2	0.6894	-0.3893
623.4	0.6891	-0.3908
624.6	0.6896	-0.3920
625.7	0.6903	-0.3926
626.9	0.6911	-0.3940
628.1	0.6917	-0.3947
629.3	0.6919	-0.3965
630.4	0.6926	-0.3980
631.6	0.6933	-0.3994
632.8	0.6940	-0.4007
634.0	0.6947	-0.4017
635.1	0.6947	-0.4029
636.3	0.6951	-0.4038
637.5	0.6953	-0.4052
638.6	0.6949	-0.4066
639.8	0.6948	-0.4083
641.0	0.6946	-0.4094
642.2	0.6943	-0.4107
643.3	0.6948	-0.4118
644.5	0.6947	-0.4130
645.7	0.6952	-0.4146
646.9	0.6955	-0.4156
648.0	0.6953	-0.4170
649.2	0.6951	-0.4182
650.4	0.6947	-0.4203
651.6	0.6947	-0.4210
652.7	0.6947	-0.4224
653.9	0.6947	-0.4222
655.1	0.6947	-0.4225
656.3	0.6950	-0.4233
657.4	0.6957	-0.4243
658.6	0.6970	-0.4260
659.8	0.6974	-0.4272
661.0	0.6977	-0.4288
662.1	0.6982	-0.4310
663.3	0.6989	-0.4327
664.5	0.7005	-0.4343
665.7	0.7011	-0.4356
666.8	0.7011	-0.4369
668.0	0.7004	-0.4380
669.2	0.6995	-0.4383
670.4	0.6991	-0.4395
671.5	0.6994	-0.4412
672.7	0.6995	-0.4431
673.9	0.6998	-0.4446
675.0	0.6996	-0.4452
676.2	0.6982	-0.4469
677.4	0.6967	-0.4485
678.6	0.6957	-0.4496
679.7	0.6949	-0.4504
680.9	0.6953	-0.4509
682.1	0.6964	-0.4520
683.3	0.6968	-0.4537
684.4	0.6974	-0.4553
685.6	0.6981	-0.4566
686.8	0.6991	-0.4578
688.0	0.6999	-0.4592
689.1	0.7001	-0.4602
690.3	0.7000	-0.4617
691.5	0.6987	-0.4630
692.7	0.6973	-0.4642
693.8	0.6967	-0.4648
695.0	0.6965	-0.4658
696.2	0.6971	-0.4672
697.4	0.6968	-0.4676
698.5	0.6957	-0.4688
699.7	0.6946	-0.4694
700.9	0.6936	-0.4701
702.1	0.6935	-0.4715
703.2	0.6931	-0.4729
704.4	0.6929	-0.4740
705.6	0.6921	-0.4759
706.8	0.6924	-0.4765
707.9	0.6922	-0.4771
709.1	0.6937	-0.4779
710.3	0.6942	-0.4792
711.4	0.6944	-0.4802
712.6	0.6936	-0.4809
713.8	0.6927	-0.4812
715.0	0.6921	-0.4816
716.1	0.6916	-0.4829
717.3	0.6916	-0.4842
718.5	0.6910	-0.4848
719.7	0.6905	-0.4854
720.8	0.6900	-0.4862
722.0	0.6897	-0.4869
723.2	0.6899	-0.4881
724.4	0.6898	-0.4895
725.5	0.6904	-0.4905
726.7	0.6913	-0.4915
727.9	0.6921	-0.4919
729.1	0.6922	-0.4924
730.2	0.6925	-0.4925
731.4	0.6926	-0.4930
732.6	0.6931	-0.4943
733.8	0.6936	-0.4956
734.9	0.6931	-0.4963
736.1	0.6920	-0.4965
737.3	0.6906	-0.4976
738.5	0.6899	-0.4985
739.6	0.6903	-0.4997
740.8	0.6907	-0.5000
742.0	0.6898	-0.5004
743.2	0.6893	-0.5009
744.3	0.6889	-0.5018
745.5	0.6896	-0.5029
746.7	0.6895	-0.5040
747.8	0.6890	-0.5047
749.0	0.6888	-0.5055
750.2	0.6893	-0.5060
751.4	0.6906	-0.5075
752.5	0.6914	-0.5085
753.7	0.6929	-0.5090
754.9	0.6940	-0.5095
756.1	0.6949	-0.5098
757.2	0.6955	-0.5107
758.4	0.6955	-0.5116
759.6	0.6949	-0.5128
760.8	0.6951	-0.5149
761.9	0.6945	-0.5162
763.1	0.6965	-0.5169
764.3	0.6963	-0.5177
765.5	0.6960	-0.5183
766.6	0.6950	-0.5191
767.8	0.6956	-0.5201
769.0	0.6951	-0.5212
770.2	0.6953	-0.5221
771.3	0.6951	-0.5244
772.5	0.6959	-0.5256
773.7	0.6971	-0.5285
774.9	0.6983	-0.5295
776.0	0.6983	-0.5294
777.2	0.6983	-0.5292
778.4	0.6985	-0.5294
779.5	0.6979	-0.5302
780.7	0.6985	-0.5308
781.9	0.6995	-0.5318
783.1	0.7008	-0.5325
784.2	0.7023	-0.5324
785.4	0.7026	-0.5334
786.6	0.7039	-0.5336
787.8	0.7058	-0.5348
788.9	0.7073	-0.5351
790.1	0.7075	-0.5354
791.3	0.7088	-0.5357
792.5	0.7100	-0.5362
793.6	0.7101	-0.5373
794.8	0.7102	-0.5369
796.0	0.7087	-0.5388
797.2	0.7072	-0.5385
798.3	0.7050	-0.5418
799.5	0.7039	-0.5435
800.7	0.7059	-0.5396
801.9	0.7073	-0.5384
803.0	0.7088	-0.5376
804.2	0.7069	-0.5402
805.4	0.7026	-0.5457
806.6	0.7017	-0.5453
807.7	0.7030	-0.5442
808.9	0.7040	-0.5452
810.1	0.7046	-0.5482
811.3	0.7041	-0.5506
812.4	0.7048	-0.5518
813.6	0.7058	-0.5512
814.8	0.7059	-0.5512
815.9	0.7062	-0.5509
817.1	0.7084	-0.5516
818.3	0.7107	-0.5511
819.5	0.7125	-0.5530
820.6	0.7133	-0.5524
821.8	0.7122	-0.5534
823.0	0.7121	-0.5517
824.2	0.7112	-0.5526
825.3	0.7116	-0.5531
826.5	0.7114	-0.5551
827.7	0.7125	-0.5565
828.9	0.7120	-0.5580
830.0	0.7136	-0.5561
831.2	0.7129	-0.5583
832.4	0.7102	-0.5602
833.6	0.7100	-0.5608
834.7	0.7072	-0.5605
835.9	0.7053	-0.5596
837.1	0.7034	-0.5620
838.3	0.7011	-0.5637
839.4	0.7025	-0.5656
840.6	0.7011	-0.5659
841.8	0.7029	-0.5668
843.0	0.7033	-0.5652
844.1	0.7073	-0.5658
845.3	0.7062	-0.5667
846.5	0.7039	-0.5673
847.7	0.7035	-0.5682
848.8	0.7029	-0.5688
850.0	0.7049	-0.5673
