# Units:
#  "lambda" is in Angstroms
#  "pass" is the contribution to the detector signal per photon
#         entering the atmosphere of Earth
#
# Bandpass Name(s): BandE
#
# Instrument: Sofia/HAWC
#
# Determined by: HAWC Instrument Team
#
# Date of determination: Unknown
#
# Meaning of/Reason for default column: Only column available
#
# Notes:
#
#
# Obtained from Ravi Sankrit at the Sofia helpdesk on 2015-May-19 on 
# behalf of the HAWC Instrument Team.  Transmission includes the effect
# of the atmosphere but it is not clear if it includes the CCD QE.
#
# J. Moustakas, 2015-May-19, Siena College

1.72080e+06 0.00150643
1.72340e+06 0.00169272
1.72600e+06 0.00181480
1.72860e+06 0.00184404
1.73120e+06 0.00171256
1.73380e+06 0.00142969
1.73640e+06 0.000819956
1.73900e+06 0.000277730
1.74160e+06 5.47455e-06
1.74420e+06 0.00000
1.74680e+06 0.00000
1.74940e+06 0.00000
1.75200e+06 7.92194e-05
1.75460e+06 0.000960134
1.75720e+06 0.00228905
1.75980e+06 0.00418960
1.76240e+06 0.00330962
1.76500e+06 0.00403959
1.76760e+06 0.00772338
1.77020e+06 0.00850656
1.77280e+06 0.00899039
1.77540e+06 0.00887263
1.77800e+06 0.00809259
1.78060e+06 0.00659512
1.78320e+06 0.00413225
1.78580e+06 0.00188363
1.78840e+06 0.000238911
1.79100e+06 0.00000
1.79360e+06 0.00000
1.79620e+06 0.00000
1.79880e+06 0.00000
1.80140e+06 0.00000
1.80400e+06 0.00000
1.80660e+06 0.00000
1.80920e+06 0.000189153
1.81180e+06 0.00284735
1.81440e+06 0.00860312
1.81700e+06 0.00423684
1.81960e+06 0.0175824
1.82220e+06 0.0228324
1.82480e+06 0.0229637
1.82740e+06 0.0308481
1.83000e+06 0.0344991
1.83260e+06 0.0373664
1.83520e+06 0.0262354
1.83780e+06 0.0357141
1.84040e+06 0.0470947
1.84300e+06 0.0489154
1.84560e+06 0.0511332
1.84820e+06 0.0550795
1.85080e+06 0.0552701
1.85340e+06 0.0496043
1.85600e+06 0.0602273
1.85860e+06 0.0602906
1.86120e+06 0.0572753
1.86380e+06 0.0470499
1.86640e+06 0.0218219
1.86900e+06 0.000398924
1.87160e+06 0.00000
1.87420e+06 0.00656354
1.87680e+06 0.0439886
1.87940e+06 0.0676894
1.88200e+06 0.0552810
1.88460e+06 0.00476815
1.88720e+06 0.0967869
1.88980e+06 0.109346
1.89240e+06 0.117064
1.89500e+06 0.0522622
1.89760e+06 0.104832
1.90020e+06 0.0966570
1.90280e+06 0.140733
1.90540e+06 0.150366
1.90800e+06 0.157961
1.91060e+06 0.167255
1.91320e+06 0.00662147
1.91580e+06 0.183242
1.91840e+06 0.193267
1.92100e+06 0.195635
1.92360e+06 0.174502
1.92620e+06 0.211227
1.92880e+06 0.229235
1.93140e+06 0.238930
1.93400e+06 0.248914
1.93660e+06 0.258049
1.93920e+06 0.268352
1.94180e+06 0.268458
1.94440e+06 0.0151402
1.94700e+06 0.293944
1.94960e+06 0.314715
1.95220e+06 0.328973
1.95480e+06 0.335459
1.95740e+06 0.269132
1.96000e+06 0.316236
1.96260e+06 0.347743
1.96520e+06 0.0305215
1.96780e+06 0.338895
1.97040e+06 0.400804
1.97300e+06 0.422259
1.97560e+06 0.427677
1.97820e+06 0.442349
1.98080e+06 0.451111
1.98340e+06 0.467196
1.98600e+06 0.480610
1.98860e+06 0.462598
1.99120e+06 0.488608
1.99380e+06 0.513109
1.99640e+06 0.519944
1.99900e+06 0.506089
2.00160e+06 0.496656
2.00420e+06 0.521105
2.00680e+06 0.520971
2.00940e+06 0.482977
2.01200e+06 0.547344
2.01460e+06 0.548885
2.01720e+06 0.556922
2.01980e+06 0.542941
2.02240e+06 0.0415296
2.02500e+06 0.522367
2.02760e+06 0.580624
2.03020e+06 0.586271
2.03280e+06 0.585870
2.03540e+06 0.554572
2.03800e+06 0.555383
2.04060e+06 0.469140
2.04320e+06 0.00159625
2.04580e+06 0.288335
2.04840e+06 0.538215
2.05100e+06 0.585984
2.05360e+06 0.602922
2.05620e+06 0.606620
2.05880e+06 0.601003
2.06140e+06 0.613969
2.06400e+06 0.614321
2.06660e+06 0.606840
2.06920e+06 0.612776
2.07180e+06 0.609316
2.07440e+06 0.605130
2.07700e+06 0.583453
2.07960e+06 0.514177
2.08220e+06 0.550611
2.08480e+06 0.596441
2.08740e+06 0.568029
2.09000e+06 0.595235
2.09260e+06 0.572888
2.09520e+06 0.572348
2.09780e+06 0.564983
2.10040e+06 0.535533
2.10300e+06 0.422432
2.10560e+06 5.72402e-05
2.10820e+06 0.345413
2.11080e+06 0.430529
2.11340e+06 0.371142
2.11600e+06 0.276441
2.11860e+06 0.146534
2.12120e+06 0.0144180
2.12380e+06 0.00000
2.12640e+06 0.00000
2.12900e+06 0.00826835
2.13160e+06 0.00000
2.13420e+06 0.252639
2.13680e+06 0.295999
2.13940e+06 0.432545
2.14200e+06 0.453064
2.14460e+06 0.118937
2.14720e+06 0.415179
2.14980e+06 0.358788
2.15240e+06 0.468764
2.15500e+06 0.506538
2.15760e+06 0.531686
2.16020e+06 0.571446
2.16280e+06 0.566221
2.16540e+06 0.575712
2.16800e+06 0.573420
2.17060e+06 0.548928
2.17320e+06 0.359300
2.17580e+06 0.565711
2.17840e+06 0.578521
2.18100e+06 0.581472
2.18360e+06 0.559622
2.18620e+06 0.578192
2.18880e+06 0.540388
2.19140e+06 0.569660
2.19400e+06 0.567685
2.19660e+06 0.532668
2.19920e+06 0.0214370
2.20180e+06 0.537325
2.20440e+06 0.561681
2.20700e+06 0.562246
2.20960e+06 0.446563
2.21220e+06 0.560238
2.21480e+06 0.559049
2.21740e+06 0.561974
2.22000e+06 0.557528
2.22260e+06 0.555627
2.22520e+06 0.555217
2.22780e+06 0.531621
2.23040e+06 0.538289
2.23300e+06 0.369690
2.23560e+06 0.542113
2.23820e+06 0.544520
2.24080e+06 0.544511
2.24340e+06 0.540473
2.24600e+06 0.537358
2.24860e+06 0.533742
2.25120e+06 0.451734
2.25380e+06 0.519849
2.25640e+06 0.516439
2.25900e+06 0.505679
2.26160e+06 0.484416
2.26420e+06 0.425674
2.26680e+06 0.0919936
2.26940e+06 0.261005
2.27200e+06 0.391354
2.27460e+06 0.465664
2.27720e+06 0.454441
2.27980e+06 0.111000
2.28240e+06 0.372265
2.28500e+06 0.470667
2.28760e+06 0.472868
2.29020e+06 0.479409
2.29280e+06 0.472444
2.29540e+06 0.314090
2.29800e+06 0.468359
2.30060e+06 0.476024
2.30320e+06 0.473091
2.30580e+06 0.469645
2.30840e+06 0.460713
2.31100e+06 0.438297
2.31360e+06 0.390212
2.31620e+06 0.454165
2.31880e+06 0.455651
2.32140e+06 0.448295
2.32400e+06 0.448163
2.32660e+06 0.440022
2.32920e+06 0.406330
2.33180e+06 0.431286
2.33440e+06 0.425257
2.33700e+06 0.416219
2.33960e+06 0.365271
2.34220e+06 0.404244
2.34480e+06 0.348104
2.34740e+06 0.384911
2.35000e+06 0.397652
2.35260e+06 0.392437
2.35520e+06 0.385909
2.35780e+06 0.380078
2.36040e+06 0.334442
2.36300e+06 0.371932
2.36560e+06 0.359230
2.36820e+06 0.355484
2.37080e+06 0.327333
2.37340e+06 0.343332
2.37600e+06 0.334408
2.37860e+06 0.320835
2.38120e+06 0.300593
2.38380e+06 0.236958
2.38640e+06 6.23956e-05
2.38900e+06 0.0688687
2.39160e+06 0.249270
2.39420e+06 0.271884
2.39680e+06 0.278157
2.39940e+06 0.210333
2.40200e+06 0.266955
2.40460e+06 0.257075
2.40720e+06 0.153978
2.40980e+06 0.242356
2.41240e+06 0.234948
2.41500e+06 0.226575
2.41760e+06 0.216691
2.42020e+06 0.203515
2.42280e+06 0.183563
2.42540e+06 0.163583
2.42800e+06 0.125186
2.43060e+06 0.0983190
2.43320e+06 0.0470422
2.43580e+06 0.00174610
2.43840e+06 0.00000
2.44100e+06 0.00000
2.44360e+06 0.00331333
2.44620e+06 0.0389450
2.44880e+06 0.0767926
2.45140e+06 0.0995729
2.45400e+06 0.111259
2.45660e+06 0.0704025
2.45920e+06 0.118048
2.46180e+06 0.114394
2.46440e+06 0.107758
2.46700e+06 0.0933993
2.46960e+06 0.00514924
2.47220e+06 0.0379639
2.47480e+06 0.0291018
2.47740e+06 0.0122794
2.48000e+06 3.08530e-05
2.48260e+06 0.00000
2.48520e+06 0.000168705
2.48780e+06 0.0140711
2.49040e+06 0.0378728
2.49300e+06 0.0566729
2.49560e+06 0.0641862
2.49820e+06 0.0684079
2.50080e+06 0.0617458
2.50340e+06 0.0657118
2.50600e+06 0.0372534
2.50860e+06 0.0446249
2.51120e+06 0.0658119
2.51380e+06 0.0657726
2.51640e+06 0.0636493
2.51900e+06 0.0619222
2.52160e+06 0.0548481
2.52420e+06 0.0578146
2.52680e+06 0.0557104
2.52940e+06 0.0524988
2.53200e+06 0.0500704
2.53460e+06 0.0463283
2.53720e+06 0.0376461
2.53980e+06 0.00313835
2.54240e+06 0.0171876
2.54500e+06 0.0346747
2.54760e+06 0.0351288
2.55020e+06 0.0329678
2.55280e+06 0.0296610
2.55540e+06 0.0253606
2.55800e+06 0.00806323
2.56060e+06 0.0155982
2.56320e+06 0.0114948
2.56580e+06 0.00642388
2.56840e+06 0.00206024
2.57100e+06 0.000197931
2.57360e+06 0.00000
2.57620e+06 0.00000
2.57880e+06 0.00000
2.58140e+06 0.00000
2.58400e+06 7.42085e-06
2.58660e+06 0.000568447
2.58920e+06 0.00130613
2.59180e+06 0.00352867
2.59440e+06 0.00261728
2.59700e+06 0.000166723
2.59960e+06 0.00000
2.60220e+06 4.24477e-05
2.60480e+06 0.00316312
2.60740e+06 0.00752949
2.61000e+06 0.00929611
2.61260e+06 0.00402908
2.61520e+06 0.00510311
2.61780e+06 0.00543375
2.62040e+06 0.0138189
2.62300e+06 0.0143288
2.62560e+06 0.0143858
2.62820e+06 0.0142197
2.63080e+06 0.0139593
2.63340e+06 0.0134704
2.63600e+06 0.0116361
2.63860e+06 0.0109216
2.64120e+06 0.0122575
2.64380e+06 0.0117458
2.64640e+06 0.0115505
2.64900e+06 0.0112666
2.65160e+06 0.0108897
2.65420e+06 0.0104700
2.65680e+06 0.00980155
2.65940e+06 0.00783051
2.66200e+06 0.00885570
2.66460e+06 0.00820042
2.66720e+06 0.00725086
2.66980e+06 0.00570503
2.67240e+06 0.00210217
2.67500e+06 0.00000
2.67760e+06 0.00147777
2.68020e+06 0.00294547
2.68280e+06 0.00206028
2.68540e+06 0.000853024
2.68800e+06 5.04006e-05
2.69060e+06 0.00000
2.69320e+06 0.00000
2.69580e+06 0.00000
2.69840e+06 0.000169325
2.70100e+06 0.000964057
2.70360e+06 0.00176975
2.70620e+06 0.00234331
2.70880e+06 0.00250241
2.71140e+06 0.00239157
2.71400e+06 0.00199822
2.71660e+06 0.00141337
2.71920e+06 0.000756865
2.72180e+06 0.000221259
2.72440e+06 2.11013e-05
2.72700e+06 0.00000
2.72960e+06 0.00000
2.73220e+06 0.00000
2.73480e+06 0.00000
2.73740e+06 0.00000
2.74000e+06 3.40687e-05
2.74260e+06 0.000280161
2.74520e+06 0.000745592
2.74780e+06 0.00122343
2.75040e+06 0.00152125
2.75300e+06 0.000949760
2.75560e+06 2.64217e-07
2.75820e+06 0.000548784
2.76080e+06 0.00234673
2.76340e+06 0.00275343
2.76600e+06 0.00316885
2.76860e+06 0.00333429
2.77120e+06 0.00342981
2.77380e+06 0.00338033
2.77640e+06 0.00339425
2.77900e+06 0.00351297
2.78160e+06 0.00289933
2.78420e+06 0.00350771
2.78680e+06 0.00349220
2.78940e+06 0.00349239
2.79200e+06 0.00329004
2.79460e+06 0.00346685
2.79720e+06 0.00341820
2.79980e+06 0.00331053
2.80240e+06 0.00143303
2.80500e+06 0.00313734
2.80760e+06 0.00311214
2.81020e+06 0.00305089
2.81280e+06 0.00299765
2.81540e+06 0.00294411
2.81800e+06 0.00286340
2.82060e+06 0.00268968
2.82320e+06 0.00183527
2.82580e+06 6.13973e-05
2.82840e+06 0.00222079
2.83100e+06 0.000946404
2.83360e+06 0.00251936
2.83620e+06 0.00253498
2.83880e+06 0.00263839
2.84140e+06 0.00270753
2.84400e+06 0.00274168
2.84660e+06 0.00275229
2.84920e+06 0.00271048
2.85180e+06 0.00266738
2.85440e+06 0.00257598
2.85700e+06 0.00251286
2.85960e+06 0.00245909
2.86220e+06 0.00247324
2.86480e+06 0.00239496
2.86740e+06 0.00241691
2.87000e+06 0.00133723
2.87260e+06 0.00246850
2.87520e+06 0.00247096
2.87780e+06 0.00245901
2.88040e+06 0.00244451
2.88300e+06 0.00243521
2.88560e+06 0.00242794
2.88820e+06 0.00236834
2.89080e+06 0.00225328
2.89340e+06 0.00170772
2.89600e+06 0.00222140
2.89860e+06 0.00223901
2.90120e+06 0.00222981
2.90380e+06 0.00215203
2.90640e+06 0.00219315
2.90900e+06 0.00214586
2.91160e+06 0.00175599
2.91420e+06 0.000116976
2.91680e+06 0.000324615
2.91940e+06 0.000559404
2.92200e+06 0.00155360
2.92460e+06 0.00177858
